{
  "resourceType": "Questionnaire",
  "id": "qs1",
  "contained": [
    {
      "resourceType": "ValueSet",
      "id": "vs2",
      "name": "Type options for CarePlan.subject",
      "status": "active",
      "description": "Type options for CarePlan.subject",
      "expansion": {
        "identifier": "urn:uuid:25468907-62cf-455a-a744-0d3fc48d536b",
        "timestamp": "2015-10-24T07:43:28+11:00",
        "contains": [
          {
            "system": "http://hl7.org/fhir/resource-types",
            "code": "Patient",
            "display": "Patient"
          },
          {
            "system": "http://hl7.org/fhir/resource-types",
            "code": "Group",
            "display": "Group"
          }
        ]
      }
    },
    {
      "resourceType": "ValueSet",
      "id": "vs3",
      "name": "Type options for CarePlan.context",
      "status": "active",
      "description": "Type options for CarePlan.context",
      "expansion": {
        "identifier": "urn:uuid:0abccaff-f6ff-449b-ada1-0568410b46e0",
        "timestamp": "2015-10-24T07:43:28+11:00",
        "contains": [
          {
            "system": "http://hl7.org/fhir/resource-types",
            "code": "Encounter",
            "display": "Encounter"
          },
          {
            "system": "http://hl7.org/fhir/resource-types",
            "code": "EpisodeOfCare",
            "display": "EpisodeOfCare"
          }
        ]
      }
    },
    {
      "resourceType": "ValueSet",
      "id": "vs4",
      "name": "Type options for CarePlan.author",
      "status": "active",
      "description": "Type options for CarePlan.author",
      "expansion": {
        "identifier": "urn:uuid:aceea0c4-07b9-4633-b3a2-3c20c01d969a",
        "timestamp": "2015-10-24T07:43:28+11:00",
        "contains": [
          {
            "system": "http://hl7.org/fhir/resource-types",
            "code": "Patient",
            "display": "Patient"
          },
          {
            "system": "http://hl7.org/fhir/resource-types",
            "code": "Practitioner",
            "display": "Practitioner"
          },
          {
            "system": "http://hl7.org/fhir/resource-types",
            "code": "RelatedPerson",
            "display": "RelatedPerson"
          },
          {
            "system": "http://hl7.org/fhir/resource-types",
            "code": "Organization",
            "display": "Organization"
          }
        ]
      }
    },
    {
      "resourceType": "ValueSet",
      "id": "vs5",
      "name": "Type options for CarePlan.participant.member",
      "status": "active",
      "description": "Type options for CarePlan.participant.member",
      "expansion": {
        "identifier": "urn:uuid:6eb968c0-16b0-4e9e-b74c-226b512781ef",
        "timestamp": "2015-10-24T07:43:28+11:00",
        "contains": [
          {
            "system": "http://hl7.org/fhir/resource-types",
            "code": "Practitioner",
            "display": "Practitioner"
          },
          {
            "system": "http://hl7.org/fhir/resource-types",
            "code": "RelatedPerson",
            "display": "RelatedPerson"
          },
          {
            "system": "http://hl7.org/fhir/resource-types",
            "code": "Patient",
            "display": "Patient"
          },
          {
            "system": "http://hl7.org/fhir/resource-types",
            "code": "Organization",
            "display": "Organization"
          }
        ]
      }
    },
    {
      "resourceType": "ValueSet",
      "id": "vs6",
      "name": "Type options for CarePlan.activity.reference",
      "status": "active",
      "description": "Type options for CarePlan.activity.reference",
      "expansion": {
        "identifier": "urn:uuid:2559744d-a62c-42d1-88e4-d1284d928468",
        "timestamp": "2015-10-24T07:43:28+11:00",
        "contains": [
          {
            "system": "http://hl7.org/fhir/resource-types",
            "code": "Appointment",
            "display": "Appointment"
          },
          {
            "system": "http://hl7.org/fhir/resource-types",
            "code": "CommunicationRequest",
            "display": "CommunicationRequest"
          },
          {
            "system": "http://hl7.org/fhir/resource-types",
            "code": "DeviceUseRequest",
            "display": "DeviceUseRequest"
          },
          {
            "system": "http://hl7.org/fhir/resource-types",
            "code": "DiagnosticOrder",
            "display": "DiagnosticOrder"
          },
          {
            "system": "http://hl7.org/fhir/resource-types",
            "code": "MedicationOrder",
            "display": "MedicationOrder"
          },
          {
            "system": "http://hl7.org/fhir/resource-types",
            "code": "NutritionOrder",
            "display": "NutritionOrder"
          },
          {
            "system": "http://hl7.org/fhir/resource-types",
            "code": "Order",
            "display": "Order"
          },
          {
            "system": "http://hl7.org/fhir/resource-types",
            "code": "ProcedureRequest",
            "display": "ProcedureRequest"
          },
          {
            "system": "http://hl7.org/fhir/resource-types",
            "code": "ProcessRequest",
            "display": "ProcessRequest"
          },
          {
            "system": "http://hl7.org/fhir/resource-types",
            "code": "ReferralRequest",
            "display": "ReferralRequest"
          },
          {
            "system": "http://hl7.org/fhir/resource-types",
            "code": "SupplyRequest",
            "display": "SupplyRequest"
          },
          {
            "system": "http://hl7.org/fhir/resource-types",
            "code": "VisionPrescription",
            "display": "VisionPrescription"
          }
        ]
      }
    },
    {
      "resourceType": "ValueSet",
      "id": "vs7",
      "name": "Type options for CarePlan.activity.detail.scheduled[x]",
      "status": "active",
      "description": "Type options for CarePlan.activity.detail.scheduled[x]",
      "expansion": {
        "identifier": "urn:uuid:43f584e5-3dba-4848-96bd-df4cb0eedd99",
        "timestamp": "2015-10-24T07:43:28+11:00",
        "contains": [
          {
            "system": "http://hl7.org/fhir/data-types",
            "code": "Timing",
            "display": "Timing"
          },
          {
            "system": "http://hl7.org/fhir/data-types",
            "code": "Period",
            "display": "Period"
          },
          {
            "system": "http://hl7.org/fhir/data-types",
            "code": "string",
            "display": "string"
          }
        ]
      }
    },
    {
      "resourceType": "ValueSet",
      "id": "vs8",
      "name": "Type options for CarePlan.activity.detail.performer",
      "status": "active",
      "description": "Type options for CarePlan.activity.detail.performer",
      "expansion": {
        "identifier": "urn:uuid:c3528442-c7a4-45c3-9928-9423f0fb69c9",
        "timestamp": "2015-10-24T07:43:28+11:00",
        "contains": [
          {
            "system": "http://hl7.org/fhir/resource-types",
            "code": "Practitioner",
            "display": "Practitioner"
          },
          {
            "system": "http://hl7.org/fhir/resource-types",
            "code": "Organization",
            "display": "Organization"
          },
          {
            "system": "http://hl7.org/fhir/resource-types",
            "code": "RelatedPerson",
            "display": "RelatedPerson"
          },
          {
            "system": "http://hl7.org/fhir/resource-types",
            "code": "Patient",
            "display": "Patient"
          }
        ]
      }
    },
    {
      "resourceType": "ValueSet",
      "id": "vs9",
      "name": "Type options for CarePlan.activity.detail.product[x]",
      "status": "active",
      "description": "Type options for CarePlan.activity.detail.product[x]",
      "expansion": {
        "identifier": "urn:uuid:001ae0c0-d914-4549-b68e-6436839eeffd",
        "timestamp": "2015-10-24T07:43:28+11:00",
        "contains": [
          {
            "system": "http://hl7.org/fhir/data-types",
            "code": "CodeableConcept",
            "display": "CodeableConcept"
          },
          {
            "system": "http://hl7.org/fhir/resource-types",
            "code": "Medication",
            "display": "Medication"
          },
          {
            "system": "http://hl7.org/fhir/resource-types",
            "code": "Substance",
            "display": "Substance"
          }
        ]
      }
    }
  ],
  "identifier": [
    {
      "system": "urn:ietf:rfc:3986"
    }
  ],
  "status": "draft",
  "date": "2015-10-24T07:41:03+11:00",
  "publisher": "Health Level Seven International (Patient Care)",
  "group": {
    "extension": [
      {
        "url": "http://hl7.org/fhir/Profile/questionnaire-extensions#flyover",
        "valueString": "Describes the intention of how one or more practitioners intend to deliver care for a particular patient, group or community for a period of time, possibly limited to care for a specific condition or set of conditions."
      }
    ],
    "linkId": "CarePlan",
    "title": "Healthcare plan for patient or group",
    "required": false,
    "repeats": true,
    "group": [
      {
        "extension": [
          {
            "url": "http://hl7.org/fhir/Profile/questionnaire-extensions#flyover",
            "valueString": "The logical id of the resource, as used in the URL for the resource. Once assigned, this value never changes. The only time that a resource does not have an id is when it is being submitted to the server using a create operation. Bundles always have an id, though it is usually a generated UUID."
          },
          {
            "url": "http://www.healthintersections.com.au/fhir/Profile/metadata#type",
            "valueString": "string"
          }
        ],
        "linkId": "CarePlan.id",
        "required": false,
        "repeats": true,
        "question": [
          {
            "linkId": "CarePlan.id.value",
            "text": "Logical id of this artifact",
            "type": "string",
            "required": false,
            "repeats": false
          }
        ]
      },
      {
        "extension": [
          {
            "url": "http://hl7.org/fhir/Profile/questionnaire-extensions#flyover",
            "valueString": "The metadata about the resource. This is content that is maintained by the infrastructure. Changes to the content may not always be associated with version changes to the resource."
          }
        ],
        "linkId": "CarePlan.meta",
        "text": "Metadata about the resource",
        "required": false,
        "repeats": true
      },
      {
        "extension": [
          {
            "url": "http://hl7.org/fhir/Profile/questionnaire-extensions#flyover",
            "valueString": "A reference to a set of rules that were followed when the resource was constructed, and which must be understood when processing the content. Asserting this rule set restricts the content to be only understood by a limited set of trading partners. This inherently limits the usefulness of the data in the long term. However, the existing health eco-system is highly fractured, and not yet ready to define, collect, and exchange data in a generally computable sense. Wherever possible, implementers and/or specification writers should avoid using this element as much as possible."
          },
          {
            "url": "http://www.healthintersections.com.au/fhir/Profile/metadata#type",
            "valueString": "uri"
          }
        ],
        "linkId": "CarePlan.implicitRules",
        "required": false,
        "repeats": true,
        "question": [
          {
            "linkId": "CarePlan.implicitRules.value",
            "text": "A set of rules under which this content was created",
            "type": "string",
            "required": false,
            "repeats": false
          }
        ]
      },
      {
        "extension": [
          {
            "url": "http://hl7.org/fhir/Profile/questionnaire-extensions#flyover",
            "valueString": "The base language in which the resource is written. Language is provided to support indexing and accessibility (typically, services such as text to speech use the language tag). The html language tag in the narrative applies  to the narrative. The language tag on the resource may be used to specify the language of other presentations generated from the data in the resource  Not all the content has to be in the base language. The Resource.language should not be assumed to apply to the narrative automatically. If a language is specified, it should it also be specified on the div element in the html (see rules in HTML5 for information about the relationship between xml:lang and the html lang attribute)."
          },
          {
            "url": "http://www.healthintersections.com.au/fhir/Profile/metadata#type",
            "valueString": "code"
          }
        ],
        "linkId": "CarePlan.language",
        "required": false,
        "repeats": true,
        "question": [
          {
            "linkId": "CarePlan.language.value",
            "text": "language",
            "type": "choice",
            "required": false,
            "repeats": false
          }
        ]
      },
      {
        "extension": [
          {
            "url": "http://hl7.org/fhir/Profile/questionnaire-extensions#flyover",
            "valueString": "A human-readable narrative that contains a summary of the resource, and may be used to represent the content of the resource to a human. The narrative need not encode all the structured data, but is required to contain sufficient detail to make it \"clinically safe\" for a human to just read the narrative. Resource definitions may define what content should be represented in the narrative to ensure clinical safety. Contained resources do not have narrative. Resources that are not contained SHOULD have a narrative."
          }
        ],
        "linkId": "CarePlan.text",
        "text": "Text summary of the resource, for human interpretation",
        "required": false,
        "repeats": true
      },
      {
        "extension": [
          {
            "url": "http://hl7.org/fhir/Profile/questionnaire-extensions#flyover",
            "valueString": "These resources do not have an independent existence apart from the resource that contains them - they cannot be identified independently, and nor can they have their own independent transaction scope. This should never be done when the content can be identified properly, as once identification is lost, it is extremely difficult (and context dependent) to restore it again."
          }
        ],
        "linkId": "CarePlan.contained",
        "text": "Contained, inline Resources",
        "required": false,
        "repeats": true
      },
      {
        "extension": [
          {
            "url": "http://hl7.org/fhir/Profile/questionnaire-extensions#flyover",
            "valueString": "May be used to represent additional information that is not part of the basic definition of the resource. In order to make the use of extensions safe and manageable, there is a strict set of governance  applied to the definition and use of extensions. Though any implementer is allowed to define an extension, there is a set of requirements that SHALL be met as part of the definition of the extension. There can be no stigma associated with the use of extensions by any application, project, or standard - regardless of the institution or jurisdiction that uses or defines the extensions.  The use of extensions is what allows the FHIR specification to retain a core level of simplicity for everyone."
          }
        ],
        "linkId": "CarePlan.extension",
        "text": "Additional Content defined by implementations",
        "required": false,
        "repeats": true
      },
      {
        "extension": [
          {
            "url": "http://hl7.org/fhir/Profile/questionnaire-extensions#flyover",
            "valueString": "May be used to represent additional information that is not part of the basic definition of the resource, and that modifies the understanding of the element that contains it. Usually modifier elements provide negation or qualification. In order to make the use of extensions safe and manageable, there is a strict set of governance applied to the definition and use of extensions. Though any implementer is allowed to define an extension, there is a set of requirements that SHALL be met as part of the definition of the extension. Applications processing a resource are required to check for modifier extensions. There can be no stigma associated with the use of extensions by any application, project, or standard - regardless of the institution or jurisdiction that uses or defines the extensions.  The use of extensions is what allows the FHIR specification to retain a core level of simplicity for everyone."
          }
        ],
        "linkId": "CarePlan.modifierExtension",
        "text": "Extensions that cannot be ignored",
        "required": false,
        "repeats": true
      },
      {
        "extension": [
          {
            "url": "http://hl7.org/fhir/Profile/questionnaire-extensions#flyover",
            "valueString": "This records identifiers associated with this care plan that are defined by business processes and/or used to refer to it when a direct URL reference to the resource itself is not appropriate (e.g. in CDA documents, or in written / printed documentation)."
          },
          {
            "url": "http://www.healthintersections.com.au/fhir/Profile/metadata#type",
            "valueString": "Identifier"
          }
        ],
        "linkId": "CarePlan.identifier",
        "text": "External Ids for this plan",
        "required": false,
        "repeats": true,
        "question": [
          {
            "linkId": "CarePlan.identifier.label",
            "text": "label:",
            "type": "string",
            "required": false,
            "repeats": false
          },
          {
            "linkId": "CarePlan.identifier.system",
            "text": "system:",
            "type": "string",
            "required": false,
            "repeats": false
          },
          {
            "linkId": "CarePlan.identifier.value",
            "text": "value:",
            "type": "string",
            "required": false,
            "repeats": false
          }
        ]
      },
      {
        "extension": [
          {
            "url": "http://hl7.org/fhir/Profile/questionnaire-extensions#flyover",
            "valueString": "Identifies the patient or group whose intended care is described by the plan."
          }
        ],
        "linkId": "CarePlan.subject",
        "text": "Who care plan is for",
        "required": false,
        "repeats": true,
        "question": [
          {
            "linkId": "CarePlan.subject._type",
            "text": "type",
            "type": "choice",
            "required": false,
            "repeats": false,
            "options": {
              "reference": "#vs2"
            },
            "group": [
              {
                "extension": [
                  {
                    "url": "http://www.healthintersections.com.au/fhir/Profile/metadata#type",
                    "valueString": "Reference"
                  }
                ],
                "linkId": "CarePlan.subject._Patient",
                "question": [
                  {
                    "extension": [
                      {
                        "url": "http://www.healthintersections.com.au/fhir/Profile/metadata#reference",
                        "valueString": "/Patient?subject=$subj&patient=$subj&encounter=$encounter"
                      }
                    ],
                    "linkId": "CarePlan.subject._Patient.value",
                    "text": "Patient",
                    "type": "reference",
                    "required": false,
                    "repeats": false
                  }
                ]
              },
              {
                "extension": [
                  {
                    "url": "http://www.healthintersections.com.au/fhir/Profile/metadata#type",
                    "valueString": "Reference"
                  }
                ],
                "linkId": "CarePlan.subject._Group",
                "question": [
                  {
                    "extension": [
                      {
                        "url": "http://www.healthintersections.com.au/fhir/Profile/metadata#reference",
                        "valueString": "/Group?subject=$subj&patient=$subj&encounter=$encounter"
                      }
                    ],
                    "linkId": "CarePlan.subject._Group.value",
                    "text": "Group",
                    "type": "reference",
                    "required": false,
                    "repeats": false
                  }
                ]
              }
            ]
          }
        ]
      },
      {
        "extension": [
          {
            "url": "http://hl7.org/fhir/Profile/questionnaire-extensions#flyover",
            "valueString": "Indicates whether the plan is currently being acted upon, represents future intentions or is now a historical record."
          },
          {
            "url": "http://www.healthintersections.com.au/fhir/Profile/metadata#type",
            "valueString": "code"
          }
        ],
        "linkId": "CarePlan.status",
        "required": true,
        "repeats": true,
        "question": [
          {
            "linkId": "CarePlan.status.value",
            "text": "status",
            "type": "choice",
            "required": false,
            "repeats": false
          }
        ]
      },
      {
        "extension": [
          {
            "url": "http://hl7.org/fhir/Profile/questionnaire-extensions#flyover",
            "valueString": "Identifies the context in which this particular CarePlan is defined. Activities conducted as a result of the care plan may well occur as part of other encounters/episodes."
          }
        ],
        "linkId": "CarePlan.context",
        "text": "Created in context of",
        "required": false,
        "repeats": true,
        "question": [
          {
            "linkId": "CarePlan.context._type",
            "text": "type",
            "type": "choice",
            "required": false,
            "repeats": false,
            "options": {
              "reference": "#vs3"
            },
            "group": [
              {
                "extension": [
                  {
                    "url": "http://www.healthintersections.com.au/fhir/Profile/metadata#type",
                    "valueString": "Reference"
                  }
                ],
                "linkId": "CarePlan.context._Encounter",
                "question": [
                  {
                    "extension": [
                      {
                        "url": "http://www.healthintersections.com.au/fhir/Profile/metadata#reference",
                        "valueString": "/Encounter?subject=$subj&patient=$subj&encounter=$encounter"
                      }
                    ],
                    "linkId": "CarePlan.context._Encounter.value",
                    "text": "Encounter",
                    "type": "reference",
                    "required": false,
                    "repeats": false
                  }
                ]
              },
              {
                "extension": [
                  {
                    "url": "http://www.healthintersections.com.au/fhir/Profile/metadata#type",
                    "valueString": "Reference"
                  }
                ],
                "linkId": "CarePlan.context._EpisodeOfCare",
                "question": [
                  {
                    "extension": [
                      {
                        "url": "http://www.healthintersections.com.au/fhir/Profile/metadata#reference",
                        "valueString": "/EpisodeOfCare?subject=$subj&patient=$subj&encounter=$encounter"
                      }
                    ],
                    "linkId": "CarePlan.context._EpisodeOfCare.value",
                    "text": "EpisodeOfCare",
                    "type": "reference",
                    "required": false,
                    "repeats": false
                  }
                ]
              }
            ]
          }
        ]
      },
      {
        "extension": [
          {
            "url": "http://hl7.org/fhir/Profile/questionnaire-extensions#flyover",
            "valueString": "Indicates when the plan did (or is intended to) come into effect and end. Any activities scheduled as part of the plan should be constrained to the specified period."
          },
          {
            "url": "http://www.healthintersections.com.au/fhir/Profile/metadata#type",
            "valueString": "Period"
          }
        ],
        "linkId": "CarePlan.period",
        "text": "Time period plan covers",
        "required": false,
        "repeats": true,
        "question": [
          {
            "linkId": "CarePlan.period.low",
            "text": "start:",
            "type": "dateTime",
            "required": false,
            "repeats": false
          },
          {
            "linkId": "CarePlan.period.end",
            "text": "end:",
            "type": "dateTime",
            "required": false,
            "repeats": false
          }
        ]
      },
      {
        "extension": [
          {
            "url": "http://hl7.org/fhir/Profile/questionnaire-extensions#flyover",
            "valueString": "Identifies the individual(s) or ogranization who is responsible for the content of the care plan. Collaborative care plans may have multiple authors."
          }
        ],
        "linkId": "CarePlan.author",
        "text": "Who is responsible for contents of the plan",
        "required": false,
        "repeats": true,
        "question": [
          {
            "linkId": "CarePlan.author._type",
            "text": "type",
            "type": "choice",
            "required": false,
            "repeats": false,
            "options": {
              "reference": "#vs4"
            },
            "group": [
              {
                "extension": [
                  {
                    "url": "http://www.healthintersections.com.au/fhir/Profile/metadata#type",
                    "valueString": "Reference"
                  }
                ],
                "linkId": "CarePlan.author._Patient",
                "question": [
                  {
                    "extension": [
                      {
                        "url": "http://www.healthintersections.com.au/fhir/Profile/metadata#reference",
                        "valueString": "/Patient?subject=$subj&patient=$subj&encounter=$encounter"
                      }
                    ],
                    "linkId": "CarePlan.author._Patient.value",
                    "text": "Patient",
                    "type": "reference",
                    "required": false,
                    "repeats": false
                  }
                ]
              },
              {
                "extension": [
                  {
                    "url": "http://www.healthintersections.com.au/fhir/Profile/metadata#type",
                    "valueString": "Reference"
                  }
                ],
                "linkId": "CarePlan.author._Practitioner",
                "question": [
                  {
                    "extension": [
                      {
                        "url": "http://www.healthintersections.com.au/fhir/Profile/metadata#reference",
                        "valueString": "/Practitioner?subject=$subj&patient=$subj&encounter=$encounter"
                      }
                    ],
                    "linkId": "CarePlan.author._Practitioner.value",
                    "text": "Practitioner",
                    "type": "reference",
                    "required": false,
                    "repeats": false
                  }
                ]
              },
              {
                "extension": [
                  {
                    "url": "http://www.healthintersections.com.au/fhir/Profile/metadata#type",
                    "valueString": "Reference"
                  }
                ],
                "linkId": "CarePlan.author._RelatedPerson",
                "question": [
                  {
                    "extension": [
                      {
                        "url": "http://www.healthintersections.com.au/fhir/Profile/metadata#reference",
                        "valueString": "/RelatedPerson?subject=$subj&patient=$subj&encounter=$encounter"
                      }
                    ],
                    "linkId": "CarePlan.author._RelatedPerson.value",
                    "text": "RelatedPerson",
                    "type": "reference",
                    "required": false,
                    "repeats": false
                  }
                ]
              },
              {
                "extension": [
                  {
                    "url": "http://www.healthintersections.com.au/fhir/Profile/metadata#type",
                    "valueString": "Reference"
                  }
                ],
                "linkId": "CarePlan.author._Organization",
                "question": [
                  {
                    "extension": [
                      {
                        "url": "http://www.healthintersections.com.au/fhir/Profile/metadata#reference",
                        "valueString": "/Organization?subject=$subj&patient=$subj&encounter=$encounter"
                      }
                    ],
                    "linkId": "CarePlan.author._Organization.value",
                    "text": "Organization",
                    "type": "reference",
                    "required": false,
                    "repeats": false
                  }
                ]
              }
            ]
          }
        ]
      },
      {
        "extension": [
          {
            "url": "http://hl7.org/fhir/Profile/questionnaire-extensions#flyover",
            "valueString": "Identifies the most recent date on which the plan has been revised."
          },
          {
            "url": "http://www.healthintersections.com.au/fhir/Profile/metadata#type",
            "valueString": "datetime"
          }
        ],
        "linkId": "CarePlan.modified",
        "required": false,
        "repeats": true,
        "question": [
          {
            "linkId": "CarePlan.modified.value",
            "text": "When last updated",
            "type": "dateTime",
            "required": false,
            "repeats": false
          }
        ]
      },
      {
        "extension": [
          {
            "url": "http://hl7.org/fhir/Profile/questionnaire-extensions#flyover",
            "valueString": "Identifies what \"kind\" of plan this is to support differentiation between multiple co-existing plans; e.g. \"Home health\", \"psychiatric\", \"asthma\", \"disease management\", \"wellness plan\", etc. There may be multiple axis of categorization and one plan may serve multiple purposes.  In some cases, this may be redundant with references to CarePlan.concern."
          },
          {
            "url": "http://www.healthintersections.com.au/fhir/Profile/metadata#type",
            "valueString": "CodeableConcept"
          }
        ],
        "linkId": "CarePlan.category",
        "text": "Type of plan",
        "required": false,
        "repeats": true,
        "question": [
          {
            "linkId": "CarePlan.category.coding",
            "text": "code:",
            "type": "open-choice",
            "required": false,
            "repeats": false
          },
          {
            "linkId": "CarePlan.category.text",
            "text": "text:",
            "type": "string",
            "required": false,
            "repeats": false
          }
        ]
      },
      {
        "extension": [
          {
            "url": "http://hl7.org/fhir/Profile/questionnaire-extensions#flyover",
            "valueString": "A description of the scope and nature of the plan."
          },
          {
            "url": "http://www.healthintersections.com.au/fhir/Profile/metadata#type",
            "valueString": "string"
          }
        ],
        "linkId": "CarePlan.description",
        "required": false,
        "repeats": true,
        "question": [
          {
            "linkId": "CarePlan.description.value",
            "text": "Summary of nature of plan",
            "type": "string",
            "required": false,
            "repeats": false
          }
        ]
      },
      {
        "extension": [
          {
            "url": "http://hl7.org/fhir/Profile/questionnaire-extensions#flyover",
            "valueString": "Identifies the conditions/problems/concerns/diagnoses/etc. whose management and/or mitigation are handled by this plan."
          },
          {
            "url": "http://www.healthintersections.com.au/fhir/Profile/metadata#type",
            "valueString": "Reference"
          }
        ],
        "linkId": "CarePlan.addresses",
        "required": false,
        "repeats": true,
        "question": [
          {
            "extension": [
              {
                "url": "http://www.healthintersections.com.au/fhir/Profile/metadata#reference",
                "valueString": "/Condition?subject=$subj&patient=$subj&encounter=$encounter"
              }
            ],
            "linkId": "CarePlan.addresses.value",
            "text": "Health issues this plan addresses",
            "type": "reference",
            "required": false,
            "repeats": false
          }
        ]
      },
      {
        "extension": [
          {
            "url": "http://hl7.org/fhir/Profile/questionnaire-extensions#flyover",
            "valueString": "Identifies portions of the patient's record that specifically influenced the formation of the plan.  These might include co-morbidities, recent procedures, limitations, recent assessments, etc. Use \"concern\" to identify specific conditions addressed by the care plan."
          },
          {
            "url": "http://www.healthintersections.com.au/fhir/Profile/metadata#type",
            "valueString": "Reference"
          }
        ],
        "linkId": "CarePlan.support",
        "required": false,
        "repeats": true,
        "question": [
          {
            "extension": [
              {
                "url": "http://www.healthintersections.com.au/fhir/Profile/metadata#reference",
                "valueString": "/Resource?subject=$subj&patient=$subj&encounter=$encounter"
              }
            ],
            "linkId": "CarePlan.support.value",
            "text": "Information considered as part of plan",
            "type": "reference",
            "required": false,
            "repeats": false
          }
        ]
      },
      {
        "extension": [
          {
            "url": "http://hl7.org/fhir/Profile/questionnaire-extensions#flyover",
            "valueString": "Identifies CarePlans with some sort of formal relationship to the current plan."
          }
        ],
        "linkId": "CarePlan.relatedPlan",
        "title": "Plans related to this one",
        "text": "Relationships are uni-directional with the \"newer\" plan pointing to the older one.",
        "required": false,
        "repeats": true,
        "group": [
          {
            "extension": [
              {
                "url": "http://hl7.org/fhir/Profile/questionnaire-extensions#flyover",
                "valueString": "unique id for the element within a resource (for internal references)."
              },
              {
                "url": "http://www.healthintersections.com.au/fhir/Profile/metadata#type",
                "valueString": "string"
              }
            ],
            "linkId": "CarePlan.relatedPlan.id",
            "required": false,
            "repeats": true,
            "question": [
              {
                "linkId": "CarePlan.relatedPlan.id.value",
                "text": "xml:id (or equivalent in JSON)",
                "type": "string",
                "required": false,
                "repeats": false
              }
            ]
          },
          {
            "extension": [
              {
                "url": "http://hl7.org/fhir/Profile/questionnaire-extensions#flyover",
                "valueString": "May be used to represent additional information that is not part of the basic definition of the element. In order to make the use of extensions safe and manageable, there is a strict set of governance  applied to the definition and use of extensions. Though any implementer is allowed to define an extension, there is a set of requirements that SHALL be met as part of the definition of the extension. There can be no stigma associated with the use of extensions by any application, project, or standard - regardless of the institution or jurisdiction that uses or defines the extensions.  The use of extensions is what allows the FHIR specification to retain a core level of simplicity for everyone."
              }
            ],
            "linkId": "CarePlan.relatedPlan.extension",
            "text": "Additional Content defined by implementations",
            "required": false,
            "repeats": true
          },
          {
            "extension": [
              {
                "url": "http://hl7.org/fhir/Profile/questionnaire-extensions#flyover",
                "valueString": "May be used to represent additional information that is not part of the basic definition of the element, and that modifies the understanding of the element that contains it. Usually modifier elements provide negation or qualification. In order to make the use of extensions safe and manageable, there is a strict set of governance applied to the definition and use of extensions. Though any implementer is allowed to define an extension, there is a set of requirements that SHALL be met as part of the definition of the extension. Applications processing a resource are required to check for modifier extensions. There can be no stigma associated with the use of extensions by any application, project, or standard - regardless of the institution or jurisdiction that uses or defines the extensions.  The use of extensions is what allows the FHIR specification to retain a core level of simplicity for everyone."
              }
            ],
            "linkId": "CarePlan.relatedPlan.modifierExtension",
            "text": "Extensions that cannot be ignored",
            "required": false,
            "repeats": true
          },
          {
            "extension": [
              {
                "url": "http://hl7.org/fhir/Profile/questionnaire-extensions#flyover",
                "valueString": "Identifies the type of relationship this plan has to the target plan. Read the relationship as \"this plan\" [relatedPlan.code] \"relatedPlan.plan\"; e.g. This plan includes Plan B.\n\nAdditional relationship types can be proposed for future releases or handled as extensions."
              },
              {
                "url": "http://www.healthintersections.com.au/fhir/Profile/metadata#type",
                "valueString": "code"
              }
            ],
            "linkId": "CarePlan.relatedPlan.code",
            "required": false,
            "repeats": true,
            "question": [
              {
                "linkId": "CarePlan.relatedPlan.code.value",
                "text": "code",
                "type": "choice",
                "required": false,
                "repeats": false
              }
            ]
          },
          {
            "extension": [
              {
                "url": "http://hl7.org/fhir/Profile/questionnaire-extensions#flyover",
                "valueString": "A reference to the plan to which a relationship is asserted."
              },
              {
                "url": "http://www.healthintersections.com.au/fhir/Profile/metadata#type",
                "valueString": "Reference"
              }
            ],
            "linkId": "CarePlan.relatedPlan.plan",
            "required": true,
            "repeats": true,
            "question": [
              {
                "extension": [
                  {
                    "url": "http://www.healthintersections.com.au/fhir/Profile/metadata#reference",
                    "valueString": "/CarePlan?subject=$subj&patient=$subj&encounter=$encounter"
                  }
                ],
                "linkId": "CarePlan.relatedPlan.plan.value",
                "text": "Plan relationship exists with",
                "type": "reference",
                "required": false,
                "repeats": false
              }
            ]
          }
        ]
      },
      {
        "extension": [
          {
            "url": "http://hl7.org/fhir/Profile/questionnaire-extensions#flyover",
            "valueString": "Identifies all people and organizations who are expected to be involved in the care envisioned by this plan."
          }
        ],
        "linkId": "CarePlan.participant",
        "title": "Who's involved in plan?",
        "required": false,
        "repeats": true,
        "group": [
          {
            "extension": [
              {
                "url": "http://hl7.org/fhir/Profile/questionnaire-extensions#flyover",
                "valueString": "unique id for the element within a resource (for internal references)."
              },
              {
                "url": "http://www.healthintersections.com.au/fhir/Profile/metadata#type",
                "valueString": "string"
              }
            ],
            "linkId": "CarePlan.participant.id",
            "required": false,
            "repeats": true,
            "question": [
              {
                "linkId": "CarePlan.participant.id.value",
                "text": "xml:id (or equivalent in JSON)",
                "type": "string",
                "required": false,
                "repeats": false
              }
            ]
          },
          {
            "extension": [
              {
                "url": "http://hl7.org/fhir/Profile/questionnaire-extensions#flyover",
                "valueString": "May be used to represent additional information that is not part of the basic definition of the element. In order to make the use of extensions safe and manageable, there is a strict set of governance  applied to the definition and use of extensions. Though any implementer is allowed to define an extension, there is a set of requirements that SHALL be met as part of the definition of the extension. There can be no stigma associated with the use of extensions by any application, project, or standard - regardless of the institution or jurisdiction that uses or defines the extensions.  The use of extensions is what allows the FHIR specification to retain a core level of simplicity for everyone."
              }
            ],
            "linkId": "CarePlan.participant.extension",
            "text": "Additional Content defined by implementations",
            "required": false,
            "repeats": true
          },
          {
            "extension": [
              {
                "url": "http://hl7.org/fhir/Profile/questionnaire-extensions#flyover",
                "valueString": "May be used to represent additional information that is not part of the basic definition of the element, and that modifies the understanding of the element that contains it. Usually modifier elements provide negation or qualification. In order to make the use of extensions safe and manageable, there is a strict set of governance applied to the definition and use of extensions. Though any implementer is allowed to define an extension, there is a set of requirements that SHALL be met as part of the definition of the extension. Applications processing a resource are required to check for modifier extensions. There can be no stigma associated with the use of extensions by any application, project, or standard - regardless of the institution or jurisdiction that uses or defines the extensions.  The use of extensions is what allows the FHIR specification to retain a core level of simplicity for everyone."
              }
            ],
            "linkId": "CarePlan.participant.modifierExtension",
            "text": "Extensions that cannot be ignored",
            "required": false,
            "repeats": true
          },
          {
            "extension": [
              {
                "url": "http://hl7.org/fhir/Profile/questionnaire-extensions#flyover",
                "valueString": "Indicates specific responsibility of an individual within the care plan; e.g. \"Primary physician\", \"Team coordinator\", \"Caregiver\", etc. Roles may sometimes be inferred by type of Practitioner.  These are relationships that hold only within the context of the care plan.  General relationships should be handled as properties of the Patient resource directly."
              },
              {
                "url": "http://www.healthintersections.com.au/fhir/Profile/metadata#type",
                "valueString": "CodeableConcept"
              }
            ],
            "linkId": "CarePlan.participant.role",
            "text": "Type of involvement",
            "required": false,
            "repeats": true,
            "question": [
              {
                "linkId": "CarePlan.participant.role.coding",
                "text": "code:",
                "type": "open-choice",
                "required": false,
                "repeats": false
              },
              {
                "linkId": "CarePlan.participant.role.text",
                "text": "text:",
                "type": "string",
                "required": false,
                "repeats": false
              }
            ]
          },
          {
            "extension": [
              {
                "url": "http://hl7.org/fhir/Profile/questionnaire-extensions#flyover",
                "valueString": "The specific person or organization who is participating/expected to participate in the care plan. Patient only needs to be listed if they have a role other than \"subject of care\".\n\nMember is optional because some participants may be known only by their role, particularly in draft plans."
              }
            ],
            "linkId": "CarePlan.participant.member",
            "text": "Who is involved",
            "required": false,
            "repeats": true,
            "question": [
              {
                "linkId": "CarePlan.participant.member._type",
                "text": "type",
                "type": "choice",
                "required": false,
                "repeats": false,
                "options": {
                  "reference": "#vs5"
                },
                "group": [
                  {
                    "extension": [
                      {
                        "url": "http://www.healthintersections.com.au/fhir/Profile/metadata#type",
                        "valueString": "Reference"
                      }
                    ],
                    "linkId": "CarePlan.participant.member._Practitioner",
                    "question": [
                      {
                        "extension": [
                          {
                            "url": "http://www.healthintersections.com.au/fhir/Profile/metadata#reference",
                            "valueString": "/Practitioner?subject=$subj&patient=$subj&encounter=$encounter"
                          }
                        ],
                        "linkId": "CarePlan.participant.member._Practitioner.value",
                        "text": "Practitioner",
                        "type": "reference",
                        "required": false,
                        "repeats": false
                      }
                    ]
                  },
                  {
                    "extension": [
                      {
                        "url": "http://www.healthintersections.com.au/fhir/Profile/metadata#type",
                        "valueString": "Reference"
                      }
                    ],
                    "linkId": "CarePlan.participant.member._RelatedPerson",
                    "question": [
                      {
                        "extension": [
                          {
                            "url": "http://www.healthintersections.com.au/fhir/Profile/metadata#reference",
                            "valueString": "/RelatedPerson?subject=$subj&patient=$subj&encounter=$encounter"
                          }
                        ],
                        "linkId": "CarePlan.participant.member._RelatedPerson.value",
                        "text": "RelatedPerson",
                        "type": "reference",
                        "required": false,
                        "repeats": false
                      }
                    ]
                  },
                  {
                    "extension": [
                      {
                        "url": "http://www.healthintersections.com.au/fhir/Profile/metadata#type",
                        "valueString": "Reference"
                      }
                    ],
                    "linkId": "CarePlan.participant.member._Patient",
                    "question": [
                      {
                        "extension": [
                          {
                            "url": "http://www.healthintersections.com.au/fhir/Profile/metadata#reference",
                            "valueString": "/Patient?subject=$subj&patient=$subj&encounter=$encounter"
                          }
                        ],
                        "linkId": "CarePlan.participant.member._Patient.value",
                        "text": "Patient",
                        "type": "reference",
                        "required": false,
                        "repeats": false
                      }
                    ]
                  },
                  {
                    "extension": [
                      {
                        "url": "http://www.healthintersections.com.au/fhir/Profile/metadata#type",
                        "valueString": "Reference"
                      }
                    ],
                    "linkId": "CarePlan.participant.member._Organization",
                    "question": [
                      {
                        "extension": [
                          {
                            "url": "http://www.healthintersections.com.au/fhir/Profile/metadata#reference",
                            "valueString": "/Organization?subject=$subj&patient=$subj&encounter=$encounter"
                          }
                        ],
                        "linkId": "CarePlan.participant.member._Organization.value",
                        "text": "Organization",
                        "type": "reference",
                        "required": false,
                        "repeats": false
                      }
                    ]
                  }
                ]
              }
            ]
          }
        ]
      },
      {
        "extension": [
          {
            "url": "http://hl7.org/fhir/Profile/questionnaire-extensions#flyover",
            "valueString": "Describes the intended objective(s) of carrying out the care plan. Goal can be achieving a particular change or merely maintaining a current state or even slowing a decline."
          },
          {
            "url": "http://www.healthintersections.com.au/fhir/Profile/metadata#type",
            "valueString": "Reference"
          }
        ],
        "linkId": "CarePlan.goal",
        "required": false,
        "repeats": true,
        "question": [
          {
            "extension": [
              {
                "url": "http://www.healthintersections.com.au/fhir/Profile/metadata#reference",
                "valueString": "/Goal?subject=$subj&patient=$subj&encounter=$encounter"
              }
            ],
            "linkId": "CarePlan.goal.value",
            "text": "Desired outcome of plan",
            "type": "reference",
            "required": false,
            "repeats": false
          }
        ]
      },
      {
        "extension": [
          {
            "url": "http://hl7.org/fhir/Profile/questionnaire-extensions#flyover",
            "valueString": "Identifies a planned action to occur as part of the plan.  For example, a medication to be used, lab tests to perform, self-monitoring, education, etc."
          }
        ],
        "linkId": "CarePlan.activity",
        "title": "Action to occur as part of plan",
        "required": false,
        "repeats": true,
        "group": [
          {
            "extension": [
              {
                "url": "http://hl7.org/fhir/Profile/questionnaire-extensions#flyover",
                "valueString": "unique id for the element within a resource (for internal references)."
              },
              {
                "url": "http://www.healthintersections.com.au/fhir/Profile/metadata#type",
                "valueString": "string"
              }
            ],
            "linkId": "CarePlan.activity.id",
            "required": false,
            "repeats": true,
            "question": [
              {
                "linkId": "CarePlan.activity.id.value",
                "text": "xml:id (or equivalent in JSON)",
                "type": "string",
                "required": false,
                "repeats": false
              }
            ]
          },
          {
            "extension": [
              {
                "url": "http://hl7.org/fhir/Profile/questionnaire-extensions#flyover",
                "valueString": "May be used to represent additional information that is not part of the basic definition of the element. In order to make the use of extensions safe and manageable, there is a strict set of governance  applied to the definition and use of extensions. Though any implementer is allowed to define an extension, there is a set of requirements that SHALL be met as part of the definition of the extension. There can be no stigma associated with the use of extensions by any application, project, or standard - regardless of the institution or jurisdiction that uses or defines the extensions.  The use of extensions is what allows the FHIR specification to retain a core level of simplicity for everyone."
              }
            ],
            "linkId": "CarePlan.activity.extension",
            "text": "Additional Content defined by implementations",
            "required": false,
            "repeats": true
          },
          {
            "extension": [
              {
                "url": "http://hl7.org/fhir/Profile/questionnaire-extensions#flyover",
                "valueString": "May be used to represent additional information that is not part of the basic definition of the element, and that modifies the understanding of the element that contains it. Usually modifier elements provide negation or qualification. In order to make the use of extensions safe and manageable, there is a strict set of governance applied to the definition and use of extensions. Though any implementer is allowed to define an extension, there is a set of requirements that SHALL be met as part of the definition of the extension. Applications processing a resource are required to check for modifier extensions. There can be no stigma associated with the use of extensions by any application, project, or standard - regardless of the institution or jurisdiction that uses or defines the extensions.  The use of extensions is what allows the FHIR specification to retain a core level of simplicity for everyone."
              }
            ],
            "linkId": "CarePlan.activity.modifierExtension",
            "text": "Extensions that cannot be ignored",
            "required": false,
            "repeats": true
          },
          {
            "extension": [
              {
                "url": "http://hl7.org/fhir/Profile/questionnaire-extensions#flyover",
                "valueString": "Resources that describe follow-on actions resulting from the plan, such as drug prescriptions, encounter records, appointments, etc."
              },
              {
                "url": "http://www.healthintersections.com.au/fhir/Profile/metadata#type",
                "valueString": "Reference"
              }
            ],
            "linkId": "CarePlan.activity.actionResulting",
            "required": false,
            "repeats": true,
            "question": [
              {
                "extension": [
                  {
                    "url": "http://www.healthintersections.com.au/fhir/Profile/metadata#reference",
                    "valueString": "/Resource?subject=$subj&patient=$subj&encounter=$encounter"
                  }
                ],
                "linkId": "CarePlan.activity.actionResulting.value",
                "text": "Appointments, orders, etc.",
                "type": "reference",
                "required": false,
                "repeats": false
              }
            ]
          },
          {
            "extension": [
              {
                "url": "http://hl7.org/fhir/Profile/questionnaire-extensions#flyover",
                "valueString": "Notes about the adherence/status/progress of the activity. This element should NOT be used to describe the activity to be performed - that occurs either within the resource pointed to by activity.detail.reference or in activity.detail.description."
              },
              {
                "url": "http://www.healthintersections.com.au/fhir/Profile/metadata#type",
                "valueString": "Annotation"
              }
            ],
            "linkId": "CarePlan.activity.progress",
            "text": "Comments about the activity status/progress",
            "required": false,
            "repeats": true
          },
          {
            "extension": [
              {
                "url": "http://hl7.org/fhir/Profile/questionnaire-extensions#flyover",
                "valueString": "The details of the proposed activity represented in a specific resource."
              }
            ],
            "linkId": "CarePlan.activity.reference",
            "text": "Activity details defined in specific resource",
            "required": false,
            "repeats": true,
            "question": [
              {
                "linkId": "CarePlan.activity.reference._type",
                "text": "type",
                "type": "choice",
                "required": false,
                "repeats": false,
                "options": {
                  "reference": "#vs6"
                },
                "group": [
                  {
                    "extension": [
                      {
                        "url": "http://www.healthintersections.com.au/fhir/Profile/metadata#type",
                        "valueString": "Reference"
                      }
                    ],
                    "linkId": "CarePlan.activity.reference._Appointment",
                    "question": [
                      {
                        "extension": [
                          {
                            "url": "http://www.healthintersections.com.au/fhir/Profile/metadata#reference",
                            "valueString": "/Appointment?subject=$subj&patient=$subj&encounter=$encounter"
                          }
                        ],
                        "linkId": "CarePlan.activity.reference._Appointment.value",
                        "text": "Appointment",
                        "type": "reference",
                        "required": false,
                        "repeats": false
                      }
                    ]
                  },
                  {
                    "extension": [
                      {
                        "url": "http://www.healthintersections.com.au/fhir/Profile/metadata#type",
                        "valueString": "Reference"
                      }
                    ],
                    "linkId": "CarePlan.activity.reference._CommunicationRequest",
                    "question": [
                      {
                        "extension": [
                          {
                            "url": "http://www.healthintersections.com.au/fhir/Profile/metadata#reference",
                            "valueString": "/CommunicationRequest?subject=$subj&patient=$subj&encounter=$encounter"
                          }
                        ],
                        "linkId": "CarePlan.activity.reference._CommunicationRequest.value",
                        "text": "CommunicationRequest",
                        "type": "reference",
                        "required": false,
                        "repeats": false
                      }
                    ]
                  },
                  {
                    "extension": [
                      {
                        "url": "http://www.healthintersections.com.au/fhir/Profile/metadata#type",
                        "valueString": "Reference"
                      }
                    ],
                    "linkId": "CarePlan.activity.reference._DeviceUseRequest",
                    "question": [
                      {
                        "extension": [
                          {
                            "url": "http://www.healthintersections.com.au/fhir/Profile/metadata#reference",
                            "valueString": "/DeviceUseRequest?subject=$subj&patient=$subj&encounter=$encounter"
                          }
                        ],
                        "linkId": "CarePlan.activity.reference._DeviceUseRequest.value",
                        "text": "DeviceUseRequest",
                        "type": "reference",
                        "required": false,
                        "repeats": false
                      }
                    ]
                  },
                  {
                    "extension": [
                      {
                        "url": "http://www.healthintersections.com.au/fhir/Profile/metadata#type",
                        "valueString": "Reference"
                      }
                    ],
                    "linkId": "CarePlan.activity.reference._DiagnosticOrder",
                    "question": [
                      {
                        "extension": [
                          {
                            "url": "http://www.healthintersections.com.au/fhir/Profile/metadata#reference",
                            "valueString": "/DiagnosticOrder?subject=$subj&patient=$subj&encounter=$encounter"
                          }
                        ],
                        "linkId": "CarePlan.activity.reference._DiagnosticOrder.value",
                        "text": "DiagnosticOrder",
                        "type": "reference",
                        "required": false,
                        "repeats": false
                      }
                    ]
                  },
                  {
                    "extension": [
                      {
                        "url": "http://www.healthintersections.com.au/fhir/Profile/metadata#type",
                        "valueString": "Reference"
                      }
                    ],
                    "linkId": "CarePlan.activity.reference._MedicationOrder",
                    "question": [
                      {
                        "extension": [
                          {
                            "url": "http://www.healthintersections.com.au/fhir/Profile/metadata#reference",
                            "valueString": "/MedicationOrder?subject=$subj&patient=$subj&encounter=$encounter"
                          }
                        ],
                        "linkId": "CarePlan.activity.reference._MedicationOrder.value",
                        "text": "MedicationOrder",
                        "type": "reference",
                        "required": false,
                        "repeats": false
                      }
                    ]
                  },
                  {
                    "extension": [
                      {
                        "url": "http://www.healthintersections.com.au/fhir/Profile/metadata#type",
                        "valueString": "Reference"
                      }
                    ],
                    "linkId": "CarePlan.activity.reference._NutritionOrder",
                    "question": [
                      {
                        "extension": [
                          {
                            "url": "http://www.healthintersections.com.au/fhir/Profile/metadata#reference",
                            "valueString": "/NutritionOrder?subject=$subj&patient=$subj&encounter=$encounter"
                          }
                        ],
                        "linkId": "CarePlan.activity.reference._NutritionOrder.value",
                        "text": "NutritionOrder",
                        "type": "reference",
                        "required": false,
                        "repeats": false
                      }
                    ]
                  },
                  {
                    "extension": [
                      {
                        "url": "http://www.healthintersections.com.au/fhir/Profile/metadata#type",
                        "valueString": "Reference"
                      }
                    ],
                    "linkId": "CarePlan.activity.reference._Order",
                    "question": [
                      {
                        "extension": [
                          {
                            "url": "http://www.healthintersections.com.au/fhir/Profile/metadata#reference",
                            "valueString": "/Order?subject=$subj&patient=$subj&encounter=$encounter"
                          }
                        ],
                        "linkId": "CarePlan.activity.reference._Order.value",
                        "text": "Order",
                        "type": "reference",
                        "required": false,
                        "repeats": false
                      }
                    ]
                  },
                  {
                    "extension": [
                      {
                        "url": "http://www.healthintersections.com.au/fhir/Profile/metadata#type",
                        "valueString": "Reference"
                      }
                    ],
                    "linkId": "CarePlan.activity.reference._ProcedureRequest",
                    "question": [
                      {
                        "extension": [
                          {
                            "url": "http://www.healthintersections.com.au/fhir/Profile/metadata#reference",
                            "valueString": "/ProcedureRequest?subject=$subj&patient=$subj&encounter=$encounter"
                          }
                        ],
                        "linkId": "CarePlan.activity.reference._ProcedureRequest.value",
                        "text": "ProcedureRequest",
                        "type": "reference",
                        "required": false,
                        "repeats": false
                      }
                    ]
                  },
                  {
                    "extension": [
                      {
                        "url": "http://www.healthintersections.com.au/fhir/Profile/metadata#type",
                        "valueString": "Reference"
                      }
                    ],
                    "linkId": "CarePlan.activity.reference._ProcessRequest",
                    "question": [
                      {
                        "extension": [
                          {
                            "url": "http://www.healthintersections.com.au/fhir/Profile/metadata#reference",
                            "valueString": "/ProcessRequest?subject=$subj&patient=$subj&encounter=$encounter"
                          }
                        ],
                        "linkId": "CarePlan.activity.reference._ProcessRequest.value",
                        "text": "ProcessRequest",
                        "type": "reference",
                        "required": false,
                        "repeats": false
                      }
                    ]
                  },
                  {
                    "extension": [
                      {
                        "url": "http://www.healthintersections.com.au/fhir/Profile/metadata#type",
                        "valueString": "Reference"
                      }
                    ],
                    "linkId": "CarePlan.activity.reference._ReferralRequest",
                    "question": [
                      {
                        "extension": [
                          {
                            "url": "http://www.healthintersections.com.au/fhir/Profile/metadata#reference",
                            "valueString": "/ReferralRequest?subject=$subj&patient=$subj&encounter=$encounter"
                          }
                        ],
                        "linkId": "CarePlan.activity.reference._ReferralRequest.value",
                        "text": "ReferralRequest",
                        "type": "reference",
                        "required": false,
                        "repeats": false
                      }
                    ]
                  },
                  {
                    "extension": [
                      {
                        "url": "http://www.healthintersections.com.au/fhir/Profile/metadata#type",
                        "valueString": "Reference"
                      }
                    ],
                    "linkId": "CarePlan.activity.reference._SupplyRequest",
                    "question": [
                      {
                        "extension": [
                          {
                            "url": "http://www.healthintersections.com.au/fhir/Profile/metadata#reference",
                            "valueString": "/SupplyRequest?subject=$subj&patient=$subj&encounter=$encounter"
                          }
                        ],
                        "linkId": "CarePlan.activity.reference._SupplyRequest.value",
                        "text": "SupplyRequest",
                        "type": "reference",
                        "required": false,
                        "repeats": false
                      }
                    ]
                  },
                  {
                    "extension": [
                      {
                        "url": "http://www.healthintersections.com.au/fhir/Profile/metadata#type",
                        "valueString": "Reference"
                      }
                    ],
                    "linkId": "CarePlan.activity.reference._VisionPrescription",
                    "question": [
                      {
                        "extension": [
                          {
                            "url": "http://www.healthintersections.com.au/fhir/Profile/metadata#reference",
                            "valueString": "/VisionPrescription?subject=$subj&patient=$subj&encounter=$encounter"
                          }
                        ],
                        "linkId": "CarePlan.activity.reference._VisionPrescription.value",
                        "text": "VisionPrescription",
                        "type": "reference",
                        "required": false,
                        "repeats": false
                      }
                    ]
                  }
                ]
              }
            ]
          },
          {
            "extension": [
              {
                "url": "http://hl7.org/fhir/Profile/questionnaire-extensions#flyover",
                "valueString": "A simple summary of a planned activity suitable for a general care plan system (e.g. form driven) that doesn't know about specific resources such as procedure etc."
              }
            ],
            "linkId": "CarePlan.activity.detail",
            "title": "In-line definition of activity",
            "required": false,
            "repeats": false,
            "group": [
              {
                "extension": [
                  {
                    "url": "http://hl7.org/fhir/Profile/questionnaire-extensions#flyover",
                    "valueString": "unique id for the element within a resource (for internal references)."
                  },
                  {
                    "url": "http://www.healthintersections.com.au/fhir/Profile/metadata#type",
                    "valueString": "string"
                  }
                ],
                "linkId": "CarePlan.activity.detail.id",
                "required": false,
                "repeats": true,
                "question": [
                  {
                    "linkId": "CarePlan.activity.detail.id.value",
                    "text": "xml:id (or equivalent in JSON)",
                    "type": "string",
                    "required": false,
                    "repeats": false
                  }
                ]
              },
              {
                "extension": [
                  {
                    "url": "http://hl7.org/fhir/Profile/questionnaire-extensions#flyover",
                    "valueString": "May be used to represent additional information that is not part of the basic definition of the element. In order to make the use of extensions safe and manageable, there is a strict set of governance  applied to the definition and use of extensions. Though any implementer is allowed to define an extension, there is a set of requirements that SHALL be met as part of the definition of the extension. There can be no stigma associated with the use of extensions by any application, project, or standard - regardless of the institution or jurisdiction that uses or defines the extensions.  The use of extensions is what allows the FHIR specification to retain a core level of simplicity for everyone."
                  }
                ],
                "linkId": "CarePlan.activity.detail.extension",
                "text": "Additional Content defined by implementations",
                "required": false,
                "repeats": true
              },
              {
                "extension": [
                  {
                    "url": "http://hl7.org/fhir/Profile/questionnaire-extensions#flyover",
                    "valueString": "May be used to represent additional information that is not part of the basic definition of the element, and that modifies the understanding of the element that contains it. Usually modifier elements provide negation or qualification. In order to make the use of extensions safe and manageable, there is a strict set of governance applied to the definition and use of extensions. Though any implementer is allowed to define an extension, there is a set of requirements that SHALL be met as part of the definition of the extension. Applications processing a resource are required to check for modifier extensions. There can be no stigma associated with the use of extensions by any application, project, or standard - regardless of the institution or jurisdiction that uses or defines the extensions.  The use of extensions is what allows the FHIR specification to retain a core level of simplicity for everyone."
                  }
                ],
                "linkId": "CarePlan.activity.detail.modifierExtension",
                "text": "Extensions that cannot be ignored",
                "required": false,
                "repeats": true
              },
              {
                "extension": [
                  {
                    "url": "http://hl7.org/fhir/Profile/questionnaire-extensions#flyover",
                    "valueString": "High-level categorization of the type of activity in a care plan."
                  },
                  {
                    "url": "http://www.healthintersections.com.au/fhir/Profile/metadata#type",
                    "valueString": "CodeableConcept"
                  }
                ],
                "linkId": "CarePlan.activity.detail.category",
                "text": "diet | drug | encounter | observation | procedure | supply | other",
                "required": false,
                "repeats": true,
                "question": [
                  {
                    "linkId": "CarePlan.activity.detail.category.coding",
                    "text": "code:",
                    "type": "open-choice",
                    "required": false,
                    "repeats": false
                  },
                  {
                    "linkId": "CarePlan.activity.detail.category.text",
                    "text": "text:",
                    "type": "string",
                    "required": false,
                    "repeats": false
                  }
                ]
              },
              {
                "extension": [
                  {
                    "url": "http://hl7.org/fhir/Profile/questionnaire-extensions#flyover",
                    "valueString": "Detailed description of the type of planned activity; e.g. What lab test, what procedure, what kind of encounter. Tends to be less relevant for activities involving particular products.  Codes should not convey negation - use \"prohibited\" instead."
                  },
                  {
                    "url": "http://www.healthintersections.com.au/fhir/Profile/metadata#type",
                    "valueString": "CodeableConcept"
                  }
                ],
                "linkId": "CarePlan.activity.detail.code",
                "text": "Detail type of activity",
                "required": false,
                "repeats": true,
                "question": [
                  {
                    "linkId": "CarePlan.activity.detail.code.coding",
                    "text": "code:",
                    "type": "open-choice",
                    "required": false,
                    "repeats": false
                  },
                  {
                    "linkId": "CarePlan.activity.detail.code.text",
                    "text": "text:",
                    "type": "string",
                    "required": false,
                    "repeats": false
                  }
                ]
              },
              {
                "extension": [
                  {
                    "url": "http://hl7.org/fhir/Profile/questionnaire-extensions#flyover",
                    "valueString": "Provides the rationale that drove the inclusion of this particular activity as part of the plan. This could be a diagnosis code.  If a full condition record exists or additional detail is needed, use reasonCondition instead."
                  },
                  {
                    "url": "http://www.healthintersections.com.au/fhir/Profile/metadata#type",
                    "valueString": "CodeableConcept"
                  }
                ],
                "linkId": "CarePlan.activity.detail.reasonCode",
                "text": "Why activity should be done",
                "required": false,
                "repeats": true,
                "question": [
                  {
                    "linkId": "CarePlan.activity.detail.reasonCode.coding",
                    "text": "code:",
                    "type": "open-choice",
                    "required": false,
                    "repeats": false
                  },
                  {
                    "linkId": "CarePlan.activity.detail.reasonCode.text",
                    "text": "text:",
                    "type": "string",
                    "required": false,
                    "repeats": false
                  }
                ]
              },
              {
                "extension": [
                  {
                    "url": "http://hl7.org/fhir/Profile/questionnaire-extensions#flyover",
                    "valueString": "Provides the health condition(s) that drove the inclusion of this particular activity as part of the plan. Conditions can be identified at the activity level that are not identified as reasons for the overall plan."
                  },
                  {
                    "url": "http://www.healthintersections.com.au/fhir/Profile/metadata#type",
                    "valueString": "Reference"
                  }
                ],
                "linkId": "CarePlan.activity.detail.reasonReference",
                "required": false,
                "repeats": true,
                "question": [
                  {
                    "extension": [
                      {
                        "url": "http://www.healthintersections.com.au/fhir/Profile/metadata#reference",
                        "valueString": "/Condition?subject=$subj&patient=$subj&encounter=$encounter"
                      }
                    ],
                    "linkId": "CarePlan.activity.detail.reasonReference.value",
                    "text": "Condition triggering need for activity",
                    "type": "reference",
                    "required": false,
                    "repeats": false
                  }
                ]
              },
              {
                "extension": [
                  {
                    "url": "http://hl7.org/fhir/Profile/questionnaire-extensions#flyover",
                    "valueString": "Internal reference that identifies the goals that this activity is intended to contribute towards meeting."
                  },
                  {
                    "url": "http://www.healthintersections.com.au/fhir/Profile/metadata#type",
                    "valueString": "Reference"
                  }
                ],
                "linkId": "CarePlan.activity.detail.goal",
                "required": false,
                "repeats": true,
                "question": [
                  {
                    "extension": [
                      {
                        "url": "http://www.healthintersections.com.au/fhir/Profile/metadata#reference",
                        "valueString": "/Goal?subject=$subj&patient=$subj&encounter=$encounter"
                      }
                    ],
                    "linkId": "CarePlan.activity.detail.goal.value",
                    "text": "Goals this activity relates to",
                    "type": "reference",
                    "required": false,
                    "repeats": false
                  }
                ]
              },
              {
                "extension": [
                  {
                    "url": "http://hl7.org/fhir/Profile/questionnaire-extensions#flyover",
                    "valueString": "Identifies what progress is being made for the specific activity. Some aspects of status can be inferred based on the resources linked in actionTaken.  Note that \"status\" is only as current as the plan was most recently updated."
                  },
                  {
                    "url": "http://www.healthintersections.com.au/fhir/Profile/metadata#type",
                    "valueString": "code"
                  }
                ],
                "linkId": "CarePlan.activity.detail.status",
                "required": false,
                "repeats": true,
                "question": [
                  {
                    "linkId": "CarePlan.activity.detail.status.value",
                    "text": "status",
                    "type": "choice",
                    "required": false,
                    "repeats": false
                  }
                ]
              },
              {
                "extension": [
                  {
                    "url": "http://hl7.org/fhir/Profile/questionnaire-extensions#flyover",
                    "valueString": "Provides reason why the activity isn't yet started, is on hold, was cancelled, etc. Will generally not be present if status is \"complete\".  Be sure to prompt to update this (or at least remove the existing value) if the status is changed."
                  },
                  {
                    "url": "http://www.healthintersections.com.au/fhir/Profile/metadata#type",
                    "valueString": "CodeableConcept"
                  }
                ],
                "linkId": "CarePlan.activity.detail.statusReason",
                "text": "Reason for current status",
                "required": false,
                "repeats": true,
                "question": [
                  {
                    "linkId": "CarePlan.activity.detail.statusReason.coding",
                    "text": "code:",
                    "type": "open-choice",
                    "required": false,
                    "repeats": false
                  },
                  {
                    "linkId": "CarePlan.activity.detail.statusReason.text",
                    "text": "text:",
                    "type": "string",
                    "required": false,
                    "repeats": false
                  }
                ]
              },
              {
                "extension": [
                  {
                    "url": "http://hl7.org/fhir/Profile/questionnaire-extensions#flyover",
                    "valueString": "If true, indicates that the described activity is one that must NOT be engaged in when following the plan."
                  },
                  {
                    "url": "http://www.healthintersections.com.au/fhir/Profile/metadata#type",
                    "valueString": "boolean"
                  }
                ],
                "linkId": "CarePlan.activity.detail.prohibited",
                "required": true,
                "repeats": true,
                "question": [
                  {
                    "linkId": "CarePlan.activity.detail.prohibited.value",
                    "text": "Do NOT do",
                    "type": "boolean",
                    "required": false,
                    "repeats": false
                  }
                ]
              },
              {
                "extension": [
                  {
                    "url": "http://hl7.org/fhir/Profile/questionnaire-extensions#flyover",
                    "valueString": "The period, timing or frequency upon which the described activity is to occur."
                  }
                ],
                "linkId": "CarePlan.activity.detail.scheduled[x]",
                "text": "When activity is to occur",
                "required": false,
                "repeats": true,
                "question": [
                  {
                    "linkId": "CarePlan.activity.detail.scheduled[x]._type",
                    "text": "type",
                    "type": "choice",
                    "required": false,
                    "repeats": false,
                    "options": {
                      "reference": "#vs7"
                    },
                    "group": [
                      {
                        "extension": [
                          {
                            "url": "http://www.healthintersections.com.au/fhir/Profile/metadata#type",
                            "valueString": "Schedule"
                          }
                        ],
                        "linkId": "CarePlan.activity.detail.scheduled[x]._Timing",
                        "text": "Timing",
                        "question": [
                          {
                            "linkId": "CarePlan.activity.detail.scheduled[x]._Timing.text",
                            "text": "text:",
                            "type": "string",
                            "required": false,
                            "repeats": false
                          },
                          {
                            "linkId": "CarePlan.activity.detail.scheduled[x]._Timing.date",
                            "text": "date:",
                            "type": "dateTime",
                            "required": false,
                            "repeats": false
                          },
                          {
                            "extension": [
                              {
                                "url": "http://www.healthintersections.com.au/fhir/Profile/metadata#reference",
                                "valueString": "/Patient?"
                              },
                              {
                                "url": "http://www.healthintersections.com.au/fhir/Profile/metadata#reference",
                                "valueString": "/Practitioner?"
                              },
                              {
                                "url": "http://www.healthintersections.com.au/fhir/Profile/metadata#reference",
                                "valueString": "/RelatedPerson?"
                              }
                            ],
                            "linkId": "CarePlan.activity.detail.scheduled[x]._Timing.author",
                            "text": "author:",
                            "type": "reference",
                            "required": false,
                            "repeats": false
                          }
                        ]
                      },
                      {
                        "extension": [
                          {
                            "url": "http://www.healthintersections.com.au/fhir/Profile/metadata#type",
                            "valueString": "Period"
                          }
                        ],
                        "linkId": "CarePlan.activity.detail.scheduled[x]._Period",
                        "text": "Period",
                        "question": [
                          {
                            "linkId": "CarePlan.activity.detail.scheduled[x]._Period.low",
                            "text": "start:",
                            "type": "dateTime",
                            "required": false,
                            "repeats": false
                          },
                          {
                            "linkId": "CarePlan.activity.detail.scheduled[x]._Period.end",
                            "text": "end:",
                            "type": "dateTime",
                            "required": false,
                            "repeats": false
                          }
                        ]
                      },
                      {
                        "extension": [
                          {
                            "url": "http://www.healthintersections.com.au/fhir/Profile/metadata#type",
                            "valueString": "string"
                          }
                        ],
                        "linkId": "CarePlan.activity.detail.scheduled[x]._string",
                        "question": [
                          {
                            "linkId": "CarePlan.activity.detail.scheduled[x]._string.value",
                            "text": "string",
                            "type": "string",
                            "required": false,
                            "repeats": false
                          }
                        ]
                      }
                    ]
                  }
                ]
              },
              {
                "extension": [
                  {
                    "url": "http://hl7.org/fhir/Profile/questionnaire-extensions#flyover",
                    "valueString": "Identifies the facility where the activity will occur; e.g. home, hospital, specific clinic, etc. May reference a specific clinical location or may identify a type of location."
                  },
                  {
                    "url": "http://www.healthintersections.com.au/fhir/Profile/metadata#type",
                    "valueString": "Reference"
                  }
                ],
                "linkId": "CarePlan.activity.detail.location",
                "required": false,
                "repeats": true,
                "question": [
                  {
                    "extension": [
                      {
                        "url": "http://www.healthintersections.com.au/fhir/Profile/metadata#reference",
                        "valueString": "/Location?subject=$subj&patient=$subj&encounter=$encounter"
                      }
                    ],
                    "linkId": "CarePlan.activity.detail.location.value",
                    "text": "Where it should happen",
                    "type": "reference",
                    "required": false,
                    "repeats": false
                  }
                ]
              },
              {
                "extension": [
                  {
                    "url": "http://hl7.org/fhir/Profile/questionnaire-extensions#flyover",
                    "valueString": "Identifies who's expected to be involved in the activity. A performer MAY also be a participant in the care plan."
                  }
                ],
                "linkId": "CarePlan.activity.detail.performer",
                "text": "Who will be responsible?",
                "required": false,
                "repeats": true,
                "question": [
                  {
                    "linkId": "CarePlan.activity.detail.performer._type",
                    "text": "type",
                    "type": "choice",
                    "required": false,
                    "repeats": false,
                    "options": {
                      "reference": "#vs8"
                    },
                    "group": [
                      {
                        "extension": [
                          {
                            "url": "http://www.healthintersections.com.au/fhir/Profile/metadata#type",
                            "valueString": "Reference"
                          }
                        ],
                        "linkId": "CarePlan.activity.detail.performer._Practitioner",
                        "question": [
                          {
                            "extension": [
                              {
                                "url": "http://www.healthintersections.com.au/fhir/Profile/metadata#reference",
                                "valueString": "/Practitioner?subject=$subj&patient=$subj&encounter=$encounter"
                              }
                            ],
                            "linkId": "CarePlan.activity.detail.performer._Practitioner.value",
                            "text": "Practitioner",
                            "type": "reference",
                            "required": false,
                            "repeats": false
                          }
                        ]
                      },
                      {
                        "extension": [
                          {
                            "url": "http://www.healthintersections.com.au/fhir/Profile/metadata#type",
                            "valueString": "Reference"
                          }
                        ],
                        "linkId": "CarePlan.activity.detail.performer._Organization",
                        "question": [
                          {
                            "extension": [
                              {
                                "url": "http://www.healthintersections.com.au/fhir/Profile/metadata#reference",
                                "valueString": "/Organization?subject=$subj&patient=$subj&encounter=$encounter"
                              }
                            ],
                            "linkId": "CarePlan.activity.detail.performer._Organization.value",
                            "text": "Organization",
                            "type": "reference",
                            "required": false,
                            "repeats": false
                          }
                        ]
                      },
                      {
                        "extension": [
                          {
                            "url": "http://www.healthintersections.com.au/fhir/Profile/metadata#type",
                            "valueString": "Reference"
                          }
                        ],
                        "linkId": "CarePlan.activity.detail.performer._RelatedPerson",
                        "question": [
                          {
                            "extension": [
                              {
                                "url": "http://www.healthintersections.com.au/fhir/Profile/metadata#reference",
                                "valueString": "/RelatedPerson?subject=$subj&patient=$subj&encounter=$encounter"
                              }
                            ],
                            "linkId": "CarePlan.activity.detail.performer._RelatedPerson.value",
                            "text": "RelatedPerson",
                            "type": "reference",
                            "required": false,
                            "repeats": false
                          }
                        ]
                      },
                      {
                        "extension": [
                          {
                            "url": "http://www.healthintersections.com.au/fhir/Profile/metadata#type",
                            "valueString": "Reference"
                          }
                        ],
                        "linkId": "CarePlan.activity.detail.performer._Patient",
                        "question": [
                          {
                            "extension": [
                              {
                                "url": "http://www.healthintersections.com.au/fhir/Profile/metadata#reference",
                                "valueString": "/Patient?subject=$subj&patient=$subj&encounter=$encounter"
                              }
                            ],
                            "linkId": "CarePlan.activity.detail.performer._Patient.value",
                            "text": "Patient",
                            "type": "reference",
                            "required": false,
                            "repeats": false
                          }
                        ]
                      }
                    ]
                  }
                ]
              },
              {
                "extension": [
                  {
                    "url": "http://hl7.org/fhir/Profile/questionnaire-extensions#flyover",
                    "valueString": "Identifies the food, drug or other product to be consumed or supplied in the activity."
                  }
                ],
                "linkId": "CarePlan.activity.detail.product[x]",
                "text": "What is to be administered/supplied",
                "required": false,
                "repeats": true,
                "question": [
                  {
                    "linkId": "CarePlan.activity.detail.product[x]._type",
                    "text": "type",
                    "type": "choice",
                    "required": false,
                    "repeats": false,
                    "options": {
                      "reference": "#vs9"
                    },
                    "group": [
                      {
                        "extension": [
                          {
                            "url": "http://www.healthintersections.com.au/fhir/Profile/metadata#type",
                            "valueString": "CodeableConcept"
                          }
                        ],
                        "linkId": "CarePlan.activity.detail.product[x]._CodeableConcept",
                        "text": "CodeableConcept",
                        "question": [
                          {
                            "linkId": "CarePlan.activity.detail.product[x]._CodeableConcept.coding",
                            "text": "code:",
                            "type": "open-choice",
                            "required": false,
                            "repeats": false
                          },
                          {
                            "linkId": "CarePlan.activity.detail.product[x]._CodeableConcept.text",
                            "text": "text:",
                            "type": "string",
                            "required": false,
                            "repeats": false
                          }
                        ]
                      },
                      {
                        "extension": [
                          {
                            "url": "http://www.healthintersections.com.au/fhir/Profile/metadata#type",
                            "valueString": "Reference"
                          }
                        ],
                        "linkId": "CarePlan.activity.detail.product[x]._Medication",
                        "question": [
                          {
                            "extension": [
                              {
                                "url": "http://www.healthintersections.com.au/fhir/Profile/metadata#reference",
                                "valueString": "/Medication?subject=$subj&patient=$subj&encounter=$encounter"
                              }
                            ],
                            "linkId": "CarePlan.activity.detail.product[x]._Medication.value",
                            "text": "Medication",
                            "type": "reference",
                            "required": false,
                            "repeats": false
                          }
                        ]
                      },
                      {
                        "extension": [
                          {
                            "url": "http://www.healthintersections.com.au/fhir/Profile/metadata#type",
                            "valueString": "Reference"
                          }
                        ],
                        "linkId": "CarePlan.activity.detail.product[x]._Substance",
                        "question": [
                          {
                            "extension": [
                              {
                                "url": "http://www.healthintersections.com.au/fhir/Profile/metadata#reference",
                                "valueString": "/Substance?subject=$subj&patient=$subj&encounter=$encounter"
                              }
                            ],
                            "linkId": "CarePlan.activity.detail.product[x]._Substance.value",
                            "text": "Substance",
                            "type": "reference",
                            "required": false,
                            "repeats": false
                          }
                        ]
                      }
                    ]
                  }
                ]
              },
              {
                "extension": [
                  {
                    "url": "http://hl7.org/fhir/Profile/questionnaire-extensions#flyover",
                    "valueString": "Identifies the quantity expected to be consumed in a given day."
                  },
                  {
                    "url": "http://www.healthintersections.com.au/fhir/Profile/metadata#type",
                    "valueString": "Quantity"
                  }
                ],
                "linkId": "CarePlan.activity.detail.dailyAmount",
                "text": "How to consume/day?",
                "required": false,
                "repeats": true,
                "question": [
                  {
                    "linkId": "CarePlan.activity.detail.dailyAmount.comparator",
                    "text": "comp:",
                    "type": "choice",
                    "required": false,
                    "repeats": false
                  },
                  {
                    "linkId": "CarePlan.activity.detail.dailyAmount.value",
                    "text": "value:",
                    "type": "decimal",
                    "required": false,
                    "repeats": false
                  },
                  {
                    "linkId": "CarePlan.activity.detail.dailyAmount.units",
                    "text": "units:",
                    "type": "string",
                    "required": false,
                    "repeats": false
                  },
                  {
                    "linkId": "CarePlan.activity.detail.dailyAmount.code",
                    "text": "coded units:",
                    "type": "string",
                    "required": false,
                    "repeats": false
                  },
                  {
                    "linkId": "CarePlan.activity.detail.dailyAmount.system",
                    "text": "units system:",
                    "type": "string",
                    "required": false,
                    "repeats": false
                  }
                ]
              },
              {
                "extension": [
                  {
                    "url": "http://hl7.org/fhir/Profile/questionnaire-extensions#flyover",
                    "valueString": "Identifies the quantity expected to be supplied, administered or consumed by the subject."
                  },
                  {
                    "url": "http://www.healthintersections.com.au/fhir/Profile/metadata#type",
                    "valueString": "Quantity"
                  }
                ],
                "linkId": "CarePlan.activity.detail.quantity",
                "text": "How much to administer/supply/consume",
                "required": false,
                "repeats": true,
                "question": [
                  {
                    "linkId": "CarePlan.activity.detail.quantity.comparator",
                    "text": "comp:",
                    "type": "choice",
                    "required": false,
                    "repeats": false
                  },
                  {
                    "linkId": "CarePlan.activity.detail.quantity.value",
                    "text": "value:",
                    "type": "decimal",
                    "required": false,
                    "repeats": false
                  },
                  {
                    "linkId": "CarePlan.activity.detail.quantity.units",
                    "text": "units:",
                    "type": "string",
                    "required": false,
                    "repeats": false
                  },
                  {
                    "linkId": "CarePlan.activity.detail.quantity.code",
                    "text": "coded units:",
                    "type": "string",
                    "required": false,
                    "repeats": false
                  },
                  {
                    "linkId": "CarePlan.activity.detail.quantity.system",
                    "text": "units system:",
                    "type": "string",
                    "required": false,
                    "repeats": false
                  }
                ]
              },
              {
                "extension": [
                  {
                    "url": "http://hl7.org/fhir/Profile/questionnaire-extensions#flyover",
                    "valueString": "This provides a textual description of constraints on the intended activity occurrence, including relation to other activities.  It may also include objectives, pre-conditions and end-conditions.  Finally, it may convey specifics about the activity such as body site, method, route, etc."
                  },
                  {
                    "url": "http://www.healthintersections.com.au/fhir/Profile/metadata#type",
                    "valueString": "string"
                  }
                ],
                "linkId": "CarePlan.activity.detail.description",
                "required": false,
                "repeats": true,
                "question": [
                  {
                    "linkId": "CarePlan.activity.detail.description.value",
                    "text": "Extra info describing activity to perform",
                    "type": "string",
                    "required": false,
                    "repeats": false
                  }
                ]
              }
            ]
          }
        ]
      },
      {
        "extension": [
          {
            "url": "http://hl7.org/fhir/Profile/questionnaire-extensions#flyover",
            "valueString": "General notes about the care plan not covered elsewhere."
          },
          {
            "url": "http://www.healthintersections.com.au/fhir/Profile/metadata#type",
            "valueString": "Annotation"
          }
        ],
        "linkId": "CarePlan.note",
        "text": "Comments about the plan",
        "required": false,
        "repeats": true
      }
    ]
  }
}