{
  "resourceType": "DiagnosticOrder",
  "id": "example",
  "text": {
    "status": "generated",
    "div": "<div><p><b>Generated Narrative with Details</b></p><p><b>id</b>: example</p><p><b>contained</b>: </p><p><b>subject</b>: <a>Patient/example</a></p><p><b>orderer</b>: <a>Practitioner/example</a></p><p><b>identifier</b>: Placer = 2345234234234</p><p><b>encounter</b>: <a>Encounter/example</a></p><p><b>reason</b>: Fam hx-ischem heart dis <span>(Details : {ICD-9 code 'V173' = '??', given as 'Fam hx-ischem heart dis'})</span></p><p><b>supportingInformation</b>: id: fasting; status: final; Fasting status - Reported <span>(Details : {LOINC code '49541-6' = 'Fasting status - Reported', given as 'Fasting status - Reported'})</span>; Patient/example; Yes <span>(Details : {http://hl7.org/fhir/v2/0136 code 'Y' = 'Yes', given as 'Yes'})</span></p><p><b>status</b>: received</p><h3>Events</h3><table><tr><td>-</td><td><b>Status</b></td><td><b>DateTime</b></td><td><b>Actor</b></td></tr><tr><td>*</td><td>requested</td><td>02/05/2013 4:16:00 PM</td><td><a>Practitioner/example</a></td></tr></table><h3>Items</h3><table><tr><td>-</td><td><b>Code</b></td><td><b>Specimen</b></td></tr><tr><td>*</td><td>Lipid Panel <span>(Details : {http://acme.org/tests code 'LIPID' = '??)</span></td><td><a>Specimen/101</a></td></tr></table><p><b>note</b>: patient is afraid of needles</p></div>"
  },
  "contained": [
    {
      "resourceType": "Observation",
      "id": "fasting",
      "status": "final",
      "_status": {
        "fhir_comments": [
          "    the mandatory quality flag:    "
        ]
      },
      "code": {
        "coding": [
          {
            "system": "http://loinc.org",
            "code": "49541-6",
            "display": "Fasting status - Reported"
          }
        ]
      },
      "subject": {
        "reference": "Patient/example"
      },
      "valueCodeableConcept": {
        "coding": [
          {
            "system": "http://hl7.org/fhir/v2/0136",
            "code": "Y",
            "display": "Yes"
          }
        ]
      }
    }
  ],
  "subject": {
    "reference": "Patient/example"
  },
  "orderer": {
    "reference": "Practitioner/example"
  },
  "identifier": [
    {
      "type": {
        "coding": [
          {
            "system": "http://hl7.org/fhir/identifier-type",
            "code": "PLAC"
          }
        ],
        "text": "Placer"
      },
      "system": "urn:oid:1.3.4.5.6.7",
      "value": "2345234234234"
    }
  ],
  "encounter": {
    "reference": "Encounter/example"
  },
  "reason": [
    {
      "coding": [
        {
          "system": "http://hl7.org/fhir/sid/icd-9",
          "code": "V173",
          "display": "Fam hx-ischem heart dis"
        }
      ]
    }
  ],
  "supportingInformation": [
    {
      "reference": "#fasting"
    }
  ],
  "status": "received",
  "event": [
    {
      "status": "requested",
      "dateTime": "2013-05-02T16:16:00-07:00",
      "actor": {
        "reference": "Practitioner/example"
      }
    }
  ],
  "item": [
    {
      "code": {
        "coding": [
          {
            "system": "http://acme.org/tests",
            "code": "LIPID"
          }
        ],
        "text": "Lipid Panel"
      },
      "specimen": [
        {
          "reference": "Specimen/101"
        }
      ]
    }
  ],
  "note": [
    {
      "text": "patient is afraid of needles"
    }
  ]
}